Folder: config_stp_esc/config_pearl_esc/support_data/coatings

Note: README.md
# config_stp_esc

File: AlMgF2_curve.csv
Wavelength nm,Reflectance
303.502,0.919
313.741,0.914744
320.76,0.910491
330.197,0.905533
339.22,0.900799
348.246,0.894172
356.323,0.88662
364.42,0.879731
373.759,0.873224
381.073,0.870036
391.583,0.867992
400.41,0.868648
409.304,0.871447
417.478,0.875422
426.139,0.880826
434.736,0.886334
443.15,0.890662
451.183,0.894625
461.163,0.899053
469.117,0.902296
477.11,0.905664
483.685,0.907774
493.123,0.910477
501.071,0.911841
512.708,0.913541
521.163,0.914411
530.473,0.915051
545.432,0.915845
555.511,0.916237
565.728,0.916552
574.018,0.916566
585.507,0.915154
590.357,0.914361
600.907,0.912945
611.507,0.911207
617.851,0.910155
629.574,0.907903
637.955,0.906325
645.557,0.905093
655.809,0.901243
664.656,0.896568
670.204,0.893766
680.422,0.888153
689.518,0.883137
698.141,0.878265
708.521,0.872995
717.36,0.868957
724.879,0.865347
733.737,0.861063
742.49,0.857154
751.535,0.852429
758.289,0.848925
769.031,0.84301
777.022,0.838573
785.344,0.833927
792.753,0.829717
798.64,0.826317

File: bmc_dm_au.csv
Wavelength nm,Reflectance
250, 0.786301
255.333, 0.835616
259.333, 0.871233
262, 0.819178
266, 0.731507
270, 0.624658
274, 0.728767
276.667, 0.791781
280.667, 0.887671
284.667,0.852055
290, 0.824658
294, 0.775342
299.333, 0.712329
310, 0.712329
314, 0.772603
319.333, 0.854795
330, 0.80274
339.333, 0.731507
342, 0.654795
347.333,0.526027
350, 0.432877
359.333, 0.454795
370,0.389041
390, 0.375342
400.667, 0.375342
410, 0.364384
419.333, 0.367123
431.333, 0.367123
439.333, 0.364384
451.333, 0.364384
460.667, 0.367123
468.667, 0.369863
479.333, 0.383562
491.333, 0.432877
503.333, 0.517808
514, 0.6
520.667, 0.652055
530, 0.706849
550,0.789041
570, 0.838356
578, 0.846575
590, 0.868493
599.333, 0.873973
618, 0.89863
630, 0.909589
640.667, 0.909589
650, 0.920548
662, 0.920548
670,0.915068
680.667, 0.928767
690, 0.923288
700.667, 0.931507
710, 0.931507
720.667,0.936986
730, 0.931507
740.667,0.936986
751.333, 0.928767
760.667, 0.934247
770,0.926027
779.333, 0.934247
790,0.936986
800.667, 0.928767
811.333, 0.934247
830, 0.934247
850, 0.939726
859.333, 0.934247
870, 0.945205
880.667, 0.945205
890, 0.931507
900.667, 0.942466
916.667, 0.942466
930, 0.939726
940.667, 0.950685
951.333, 0.939726
964.667, 0.945205
980.667, 0.939726
990,0.947945
1000.67, 0.942466
1011.33,0.947945
1028.67,0.947945
1040.67, 0.958904
1051.33, 0.942466
1062, 0.953425
1070, 0.958904
1080.67, 0.972603
1091.33, 0.961644